Wave (nm) - Position (mm) - Linear Dispersion (nm/pix) - Slit Width (pix) - Resolution 
    120.0000    -20.4036      0.0361      2.0000   1661.6397
    121.0000    -20.1267      0.0361      2.0000   1675.2730
    122.0000    -19.8498      0.0361      2.0000   1688.9021
    123.0000    -19.5729      0.0361      2.0000   1702.5270
    124.0000    -19.2961      0.0361      2.0000   1716.1477
    125.0000    -19.0193      0.0361      2.0000   1729.7642
    126.0000    -18.7425      0.0361      2.0000   1743.3764
    127.0000    -18.4658      0.0361      2.0000   1756.9844
    128.0000    -18.1891      0.0361      2.0000   1770.5882
    129.0000    -17.9124      0.0362      2.0000   1784.1876
    130.0000    -17.6358      0.0362      2.0000   1797.7827
    131.0000    -17.3592      0.0362      2.0000   1811.3735
    132.0000    -17.0827      0.0362      2.0000   1824.9600
    133.0000    -16.8062      0.0362      2.0000   1838.5421
    134.0000    -16.5297      0.0362      2.0000   1852.1198
    135.0000    -16.2533      0.0362      2.0000   1865.6931
    136.0000    -15.9769      0.0362      2.0000   1879.2620
    137.0000    -15.7005      0.0362      2.0000   1892.8265
    138.0000    -15.4242      0.0362      2.0000   1906.3865
    139.0000    -15.1479      0.0362      2.0000   1919.9421
    140.0000    -14.8717      0.0362      2.0000   1933.4932
    141.0000    -14.5954      0.0362      2.0000   1947.0397
    142.0000    -14.3193      0.0362      2.0000   1960.5818
    143.0000    -14.0431      0.0362      2.0000   1974.1193
    144.0000    -13.7670      0.0362      2.0000   1987.6522
    145.0000    -13.4910      0.0362      2.0000   2001.1806
    146.0000    -13.2149      0.0362      2.0000   2014.7044
    147.0000    -12.9390      0.0362      2.0000   2028.2235
    148.0000    -12.6630      0.0362      2.0000   2041.7381
    149.0000    -12.3871      0.0362      2.0000   2055.2479
    150.0000    -12.1112      0.0363      2.0000   2068.7532
    151.0000    -11.8354      0.0363      2.0000   2082.2537
    152.0000    -11.5596      0.0363      2.0000   2095.7495
    153.0000    -11.2838      0.0363      2.0000   2109.2406
    154.0000    -11.0081      0.0363      2.0000   2122.7269
    155.0000    -10.7324      0.0363      2.0000   2136.2085
    156.0000    -10.4568      0.0363      2.0000   2149.6853
    157.0000    -10.1812      0.0363      2.0000   2163.1573
    158.0000     -9.9056      0.0363      2.0000   2176.6245
    159.0000     -9.6301      0.0363      2.0000   2190.0868
    160.0000     -9.3546      0.0363      2.0000   2203.5443
    161.0000     -9.0792      0.0363      2.0000   2216.9969
    162.0000     -8.8038      0.0363      2.0000   2230.4446
    163.0000     -8.5284      0.0363      2.0000   2243.8873
    164.0000     -8.2531      0.0363      2.0000   2257.3252
    165.0000     -7.9778      0.0363      2.0000   2270.7581
    166.0000     -7.7026      0.0363      2.0000   2284.1860
    167.0000     -7.4274      0.0363      2.0000   2297.6089
    168.0000     -7.1522      0.0363      2.0000   2311.0268
    169.0000     -6.8771      0.0364      2.0000   2324.4396
    170.0000     -6.6020      0.0364      2.0000   2337.8475
    171.0000     -6.3270      0.0364      2.0000   2351.2502
    172.0000     -6.0520      0.0364      2.0000   2364.6478
    173.0000     -5.7770      0.0364      2.0000   2378.0404
    174.0000     -5.5021      0.0364      2.0000   2391.4277
    175.0000     -5.2272      0.0364      2.0000   2404.8100
    176.0000     -4.9524      0.0364      2.0000   2418.1870
    177.0000     -4.6776      0.0364      2.0000   2431.5589
    178.0000     -4.4028      0.0364      2.0000   2444.9255
    179.0000     -4.1281      0.0364      2.0000   2458.2869
    180.0000     -3.8534      0.0364      2.0000   2471.6431
    181.0000     -3.5788      0.0364      2.0000   2484.9940
    182.0000     -3.3042      0.0364      2.0000   2498.3395
    183.0000     -3.0297      0.0364      2.0000   2511.6798
    184.0000     -2.7552      0.0364      2.0000   2525.0147
    185.0000     -2.4807      0.0364      2.0000   2538.3443
    186.0000     -2.2063      0.0364      2.0000   2551.6684
    187.0000     -1.9319      0.0365      2.0000   2564.9872
    188.0000     -1.6576      0.0365      2.0000   2578.3006
    189.0000     -1.3833      0.0365      2.0000   2591.6085
    190.0000     -1.1091      0.0365      2.0000   2604.9109
    191.0000     -0.8349      0.0365      2.0000   2618.2078
    192.0000     -0.5607      0.0365      2.0000   2631.4993
    193.0000     -0.2866      0.0365      2.0000   2644.7852
    194.0000     -0.0125      0.0365      2.0000   2658.0656
    195.0000      0.2615      0.0365      2.0000   2671.3403
    196.0000      0.5355      0.0365      2.0000   2684.6095
    197.0000      0.8094      0.0365      2.0000   2697.8731
    198.0000      1.0833      0.0365      2.0000   2711.1310
    199.0000      1.3572      0.0365      2.0000   2724.3833
    200.0000      1.6310      0.0365      2.0000   2737.6299
    201.0000      1.9047      0.0365      2.0000   2750.8708
    202.0000      2.1784      0.0365      2.0000   2764.1060
    203.0000      2.4521      0.0365      2.0000   2777.3354
    204.0000      2.7257      0.0366      2.0000   2790.5590
    205.0000      2.9993      0.0366      2.0000   2803.7769
    206.0000      3.2729      0.0366      2.0000   2816.9889
    207.0000      3.5464      0.0366      2.0000   2830.1951
    208.0000      3.8198      0.0366      2.0000   2843.3955
    209.0000      4.0932      0.0366      2.0000   2856.5899
    210.0000      4.3666      0.0366      2.0000   2869.7785
    211.0000      4.6399      0.0366      2.0000   2882.9611
    212.0000      4.9132      0.0366      2.0000   2896.1378
    213.0000      5.1864      0.0366      2.0000   2909.3085
    214.0000      5.4596      0.0366      2.0000   2922.4732
    215.0000      5.7327      0.0366      2.0000   2935.6319
    216.0000      6.0058      0.0366      2.0000   2948.7845
    217.0000      6.2788      0.0366      2.0000   2961.9311
    218.0000      6.5518      0.0366      2.0000   2975.0716
    219.0000      6.8247      0.0366      2.0000   2988.2059
    220.0000      7.0976      0.0367      2.0000   3001.3342
    221.0000      7.3705      0.0367      2.0000   3014.4563
    222.0000      7.6433      0.0367      2.0000   3027.5722
    223.0000      7.9160      0.0367      2.0000   3040.6818
    224.0000      8.1887      0.0367      2.0000   3053.7853
    225.0000      8.4614      0.0367      2.0000   3066.8825
    226.0000      8.7340      0.0367      2.0000   3079.9734
    227.0000      9.0066      0.0367      2.0000   3093.0581
    228.0000      9.2791      0.0367      2.0000   3106.1364
    229.0000      9.5516      0.0367      2.0000   3119.2083
    230.0000      9.8240      0.0367      2.0000   3132.2739
    231.0000     10.0963      0.0367      2.0000   3145.3331
    232.0000     10.3687      0.0367      2.0000   3158.3858
    233.0000     10.6409      0.0367      2.0000   3171.4321
    234.0000     10.9132      0.0367      2.0000   3184.4720
    235.0000     11.1853      0.0367      2.0000   3197.5053
    236.0000     11.4575      0.0368      2.0000   3210.5321
    237.0000     11.7296      0.0368      2.0000   3223.5524
    238.0000     12.0016      0.0368      2.0000   3236.5661
    239.0000     12.2736      0.0368      2.0000   3249.5732
    240.0000     12.5455      0.0368      2.0000   3262.5737
    241.0000     12.8174      0.0368      2.0000   3275.5675
    242.0000     13.0892      0.0368      2.0000   3288.5547
    243.0000     13.3610      0.0368      2.0000   3301.5351
    244.0000     13.6327      0.0368      2.0000   3314.5089
    245.0000     13.9044      0.0368      2.0000   3327.4759
    246.0000     14.1760      0.0368      2.0000   3340.4361
    247.0000     14.4476      0.0368      2.0000   3353.3895
    248.0000     14.7191      0.0368      2.0000   3366.3361
    249.0000     14.9906      0.0368      2.0000   3379.2758
    250.0000     15.2620      0.0368      2.0000   3392.2087
    251.0000     15.5334      0.0369      2.0000   3405.1346
    252.0000     15.8048      0.0369      2.0000   3418.0537
    253.0000     16.0760      0.0369      2.0000   3430.9658
    254.0000     16.3472      0.0369      2.0000   3443.8708
    255.0000     16.6184      0.0369      2.0000   3456.7689
    256.0000     16.8895      0.0369      2.0000   3469.6600
    257.0000     17.1606      0.0369      2.0000   3482.5440
    258.0000     17.4316      0.0369      2.0000   3495.4209
    259.0000     17.7026      0.0369      2.0000   3508.2907
    260.0000     17.9735      0.0369      2.0000   3521.1533
    261.0000     18.2444      0.0369      2.0000   3534.0088
    262.0000     18.5152      0.0369      2.0000   3546.8571
    263.0000     18.7859      0.0369      2.0000   3559.6981
    264.0000     19.0566      0.0369      2.0000   3572.5319
    265.0000     19.3273      0.0370      2.0000   3585.3584
    266.0000     19.5978      0.0370      2.0000   3598.1777
    267.0000     19.8684      0.0370      2.0000   3610.9895
    268.0000     20.1389      0.0370      2.0000   3623.7941
    269.0000     20.4093      0.0370      2.0000   3636.5912
    270.0000     20.6797      0.0370      2.0000   3649.3809
